File: src/input_data/sample-spect.txt
Wavelength[nm]	Intensity[normalized]	Ret_Intensity[normalized]	Phase[rad]
450.03	0.00231303	0.485156	2.36107
450.49	0.00291018	0.423667	2.42045
450.95	0.00440582	0.304117	2.33689
451.41	0.00613880	0.246285	2.44134
451.88	0.00653358	0.212411	2.59311
452.34	0.00579246	0.184757	2.70228
452.80	0.00454196	0.16237	2.75119
453.26	0.00258318	0.149077	2.70558
453.72	0.00095781	0.14073	2.58492
454.18	0.00110424	0.120837	2.50044
454.64	0.00228911	0.08032012	2.52923
455.10	0.00308634	0.04967529	2.56086
455.56	0.00339157	0.06402828	2.47513
456.02	0.00322377	0.08338257	2.4673
456.48	0.00211564	0.07168936	2.80973
456.94	0.00040540	0.04900751	3.26116
457.41	0.00000000	0.04205114	3.509
457.87	0.00000000	0.04893504	3.55124
458.33	0.00000000	0.04944534	3.55869
458.79	0.00116620	0.03528264	3.60357
459.25	0.00207204	0.01975060	3.59497
459.71	0.00291251	0.01135361	3.40489
460.17	0.00377302	0.00682809	3.3028
460.63	0.00400662	0.00706882	3.70172
461.09	0.00351633	0.01103736	4.23439
461.55	0.00282675	0.01919739	4.32066
462.01	0.00205641	0.02896166	3.91262
462.47	0.00142419	0.03174521	3.57367
462.93	0.00124293	0.01891405	3.66606
463.39	0.00144527	0.00912614	3.7942
463.85	0.00155476	0.02245922	3.66117
464.31	0.00156345	0.04632932	3.46708
464.77	0.00225097	0.07635359	3.40622
465.23	0.00333592	0.102513	3.46582
465.69	0.00355331	0.102796	3.50519
466.15	0.00286624	0.05798164	3.44712
466.61	0.00260553	0.01263072	3.44194
467.07	0.00303844	0.01640198	3.73959
467.53	0.00305254	0.03500251	4.04606
467.99	0.00253978	0.03531297	3.9482
468.45	0.00214561	0.01762418	3.51138
468.91	0.00168055	0.00955047	3.26289
469.37	0.00116928	0.03226766	3.63039
469.83	0.00153677	0.05520543	4.07087
470.29	0.00262782	0.05010526	4.15554
470.75	0.00341080	0.03192163	4.05428
471.21	0.00388814	0.01806838	3.96624
471.67	0.00424819	0.01512535	3.96851
472.13	0.00404410	0.01624011	4.01123
472.59	0.00314786	0.02010120	4.12658
473.05	0.00225382	0.02542802	4.25589
473.51	0.00185310	0.03173346	4.33954
473.97	0.00140479	0.03661611	4.39018
474.43	0.00066981	0.03515068	4.46829
474.89	0.00022452	0.02103485	4.61287
475.35	0.00011662	0.00765938	4.77017
475.81	0.00000000	0.00960244	4.91084
476.27	0.00000000	0.01985483	4.99086
476.73	0.00025479	0.02863809	4.89691
477.19	0.00175676	0.03038487	4.56351
477.65	0.00339993	0.02846310	4.26012
478.11	0.00428171	0.02032422	4.36952
478.57	0.00401644	0.01076649	4.59281
479.03	0.00314780	0.00594125	4.55105
479.49	0.00245839	0.00844069	4.1436
479.95	0.00195368	0.01194928	3.85477
480.41	0.00145079	0.00943684	4.35737
480.87	0.00113460	0.00676613	5.07224
481.33	0.00084865	0.01028218	5.51887
481.79	0.00039376	0.02134006	5.49897
482.24	0.00019766	0.03102514	5.26736
482.70	0.00040181	0.02870992	4.87674
483.16	0.00058416	0.02158872	4.43642
483.62	0.00074238	0.01444506	4.09285
484.08	0.00094773	0.00982439	3.92019
484.54	0.00084793	0.00620758	3.82464
485.00	0.00048877	0.00330819	3.62355
485.46	0.00025738	0.00213641	3.58151
485.92	0.00017600	0.00483073	4.11937
486.38	0.00014285	0.01254357	5.46951
486.84	0.00015444	0.01901689	6.6934
487.30	0.00008165	0.01519325	6.65233
487.75	0.00000000	0.00687094	5.91754
488.21	0.00000000	0.00212620	5.24387
488.67	0.00000000	0.00926312	5.29924
489.13	0.00000000	0.01705018	5.4293
489.59	0.00019249	0.01622069	5.23266
490.05	0.00079296	0.00869956	4.7903
490.51	0.00114403	0.00197205	4.41666
490.97	0.00132221	0.00660758	4.57554
491.43	0.00129746	0.01289074	4.81573
491.88	0.00103173	0.01528519	4.90185
492.34	0.00098737	0.01150446	4.70493
492.80	0.00129034	0.00751799	4.40072
493.26	0.00149964	0.00881736	4.02531
493.72	0.00150671	0.01269535	3.61186
494.18	0.00151299	0.01633994	3.20817
494.64	0.00137940	0.01725062	2.88453
495.10	0.00098350	0.01686540	2.57057
495.55	0.00082688	0.01470931	2.1979
496.01	0.00107482	0.01122815	1.77916
496.47	0.00105678	0.00790970	1.41589
496.93	0.00062853	0.00717082	1.25647
497.39	0.00033466	0.00748595	1.19345
497.85	0.00027179	0.00763588	1.16429
498.30	0.00019047	0.00634762	1.11328
498.76	0.00016374	0.00477268	1.00719
499.22	0.00032193	0.00324067	0.742447
499.68	0.00049426	0.00197371	0.334649
500.14	0.00060703	0.00104884	-0.04925356
500.60	0.00069633	0.00031386	-0.181759
501.06	0.00061967	0.00038434	-0.179116
501.51	0.00057198	0.00200393	-0.13316
501.97	0.00099757	0.00801574	-0.189436
502.43	0.00164094	0.01383288	-0.232746
502.89	0.00197493	0.01580096	-0.215278
503.35	0.00202074	0.01150206	-0.104839
503.80	0.00192870	0.00656617	-0.03818725
504.26	0.00173046	0.00599415	-0.242896
504.72	0.00155835	0.00909365	-0.62037
505.18	0.00146939	0.01201275	-0.901114
505.64	0.00129223	0.00967889	-0.56563
506.09	0.00096673	0.00567169	-0.04950332
506.55	0.00062033	0.00273518	0.315201
507.01	0.00028491	0.00586072	-0.101434
507.47	0.00003290	0.00994336	-0.677375
507.93	0.00003094	0.01262773	-1.17633
508.38	0.00022690	0.01160585	-1.34051
508.84	0.00028389	0.00996919	-1.40336
509.30	0.00009658	0.00934794	-1.42643
509.76	0.00003254	0.01020528	-1.42539
510.22	0.00031726	0.01133200	-1.37584
510.67	0.00086227	0.01144901	-1.23681
511.13	0.00152585	0.01132702	-1.04935
511.59	0.00202162	0.01230352	-0.894547
512.05	0.00214653	0.01831477	-0.874967
512.50	0.00213147	0.02528585	-0.943771
512.96	0.00214341	0.03008978	-1.07267
513.42	0.00192694	0.02456849	-1.32517
513.88	0.00139603	0.01679548	-1.56069
514.33	0.00081739	0.01021526	-1.68159
514.79	0.00042140	0.01067394	-1.47404
515.25	0.00030800	0.01306401	-1.20467
515.71	0.00041841	0.01619780	-1.00536
516.16	0.00062040	0.01882443	-1.01382
516.62	0.00083124	0.02094005	-1.08555
517.08	0.00093400	0.02143957	-1.17079
517.54	0.00095342	0.01972799	-1.24221
517.99	0.00106072	0.01766445	-1.31352
518.45	0.00129355	0.01661210	-1.39159
518.91	0.00165485	0.01705746	-1.47059
519.37	0.00206924	0.01796678	-1.51929
519.82	0.00221935	0.01879214	-1.51135
520.28	0.00206135	0.01949984	-1.44096
520.74	0.00199950	0.02051578	-1.37063
521.19	0.00216200	0.02215048	-1.35703
521.65	0.00240399	0.02439991	-1.39727
522.11	0.00262789	0.02709702	-1.45817
522.57	0.00258652	0.03081507	-1.51632
523.02	0.00226034	0.03482672	-1.57467
523.48	0.00198254	0.03799020	-1.63912
523.94	0.00179879	0.03852482	-1.72044
524.39	0.00159343	0.03686477	-1.80595
524.85	0.00150401	0.03391027	-1.88299
525.31	0.00159127	0.02889017	-1.93206
525.76	0.00168110	0.02349100	-1.95416
526.22	0.00160526	0.01979745	-1.9581
526.68	0.00143759	0.02279887	-1.92828
527.14	0.00143218	0.02989231	-1.8872
527.59	0.00153525	0.03726039	-1.8593
528.05	0.00159824	0.04016921	-1.89049
528.51	0.00174332	0.03958775	-1.95932
528.96	0.00198198	0.03766597	-2.03555
529.42	0.00215752	0.03530132	-2.08696
529.88	0.00220923	0.03301311	-2.10286
530.33	0.00217059	0.03120024	-2.12329
530.79	0.00202127	0.03121572	-2.15805
531.25	0.00168030	0.03280934	-2.2101
531.70	0.00136407	0.03489257	-2.26481
532.16	0.00145444	0.03658734	-2.31537
532.62	0.00178783	0.03772180	-2.36474
533.07	0.00191180	0.03878240	-2.41684
533.53	0.00179823	0.04004975	-2.48342
533.98	0.00164874	0.04154240	-2.57134
534.44	0.00148657	0.04277721	-2.65132
534.90	0.00139078	0.04327751	-2.71558
535.35	0.00160772	0.04273137	-2.74462
535.81	0.00207558	0.04192507	-2.76579
536.27	0.00237972	0.04134939	-2.78009
536.72	0.00226970	0.04169142	-2.80514
537.18	0.00194740	0.04184320	-2.82141
537.64	0.00169290	0.04126262	-2.84066
538.09	0.00144096	0.03782793	-2.87364
538.55	0.00117263	0.03474223	-2.90769
539.00	0.00112837	0.03314251	-2.94576
539.46	0.00133592	0.03844623	-2.97908
539.92	0.00150129	0.04509019	-3.0106
540.37	0.00151142	0.05080520	-3.04034
540.83	0.00157071	0.04970747	-3.06931
541.28	0.00166882	0.04504017	-3.09752
541.74	0.00168022	0.03956565	-3.11133
542.20	0.00179841	0.03571535	-3.09903
542.65	0.00210084	0.03405393	-3.06945
543.11	0.00234878	0.03415405	-3.04115
543.56	0.00246426	0.03756504	-3.03661
544.02	0.00245663	0.04473883	-3.07345
544.48	0.00230712	0.05206630	-3.11456
544.93	0.00211076	0.05720797	-3.1502
545.39	0.00191019	0.05567277	-3.15305
545.84	0.00179238	0.05287957	-3.1495
546.30	0.00180050	0.05018415	-3.1425
546.75	0.00178524	0.05250770	-3.14086
547.21	0.00183338	0.05585542	-3.14264
547.67	0.00208623	0.05876163	-3.13615
548.12	0.00238990	0.05770421	-3.12042
548.58	0.00261687	0.05412970	-3.09842
549.03	0.00274350	0.05055244	-3.07406
549.49	0.00281277	0.04919656	-3.04346
549.94	0.00291910	0.05130563	-3.01933
550.40	0.00300061	0.05462484	-2.989
550.85	0.00299166	0.05867538	-2.96226
551.31	0.00296563	0.06300752	-2.93911
551.77	0.00293251	0.06707562	-2.91763
552.22	0.00289683	0.07037226	-2.89687
552.68	0.00291962	0.07063013	-2.86902
553.13	0.00293916	0.06953260	-2.8341
553.59	0.00286837	0.06846170	-2.79312
554.04	0.00279371	0.06945862	-2.73338
554.50	0.00276777	0.07303944	-2.64711
554.95	0.00276763	0.07686519	-2.56948
555.41	0.00290886	0.08001088	-2.5083
555.86	0.00321915	0.08008285	-2.49877
556.32	0.00350871	0.07946186	-2.50867
556.77	0.00353849	0.07860682	-2.51067
557.23	0.00325463	0.07853609	-2.47257
557.68	0.00289310	0.07908121	-2.41
558.14	0.00265763	0.08003081	-2.34448
558.59	0.00259912	0.08163047	-2.29847
559.05	0.00267280	0.08402491	-2.27689
559.50	0.00275212	0.08642908	-2.26412
559.96	0.00282543	0.08850913	-2.25529
560.41	0.00289620	0.08877942	-2.22796
560.87	0.00285489	0.08856876	-2.1968
561.32	0.00280387	0.08836315	-2.16671
561.78	0.00299715	0.08920839	-2.14454
562.23	0.00333842	0.09116946	-2.1303
562.69	0.00359080	0.09314861	-2.125
563.14	0.00375415	0.09472092	-2.12278
563.60	0.00386166	0.09402151	-2.13049
564.05	0.00401930	0.09315342	-2.13938
564.51	0.00435144	0.09263956	-2.15726
564.96	0.00468732	0.09409849	-2.16852
565.42	0.00470187	0.09726035	-2.18296
565.87	0.00431362	0.100806	-2.19374
566.33	0.00387627	0.1042	-2.20576
566.78	0.00374438	0.106276	-2.21709
567.24	0.00382994	0.107831	-2.22092
567.69	0.00393479	0.108861	-2.23091
568.14	0.00406991	0.108767	-2.23734
568.60	0.00421849	0.107968	-2.2402
569.05	0.00421230	0.107436	-2.24929
569.51	0.00403998	0.107786	-2.26168
569.96	0.00396769	0.111892	-2.29009
570.42	0.00418950	0.116423	-2.32867
570.87	0.00446415	0.120549	-2.36377
571.33	0.00442834	0.121881	-2.39931
571.78	0.00422202	0.120244	-2.43041
572.23	0.00417547	0.118008	-2.45124
572.69	0.00431345	0.115895	-2.46865
573.14	0.00454484	0.11701	-2.46702
573.60	0.00477530	0.118747	-2.45515
574.05	0.00490719	0.12028	-2.44284
574.50	0.00498516	0.120166	-2.4252
574.96	0.00518402	0.11731	-2.41105
575.41	0.00549213	0.114144	-2.39355
575.87	0.00572933	0.111332	-2.37469
576.32	0.00590359	0.110873	-2.36325
576.78	0.00605270	0.11204	-2.34461
577.23	0.00613612	0.114038	-2.33245
577.68	0.00610943	0.116634	-2.31898
578.14	0.00590676	0.119548	-2.30029
578.59	0.00571784	0.122641	-2.28129
579.04	0.00584187	0.125714	-2.25516
579.50	0.00621769	0.128167	-2.21897
579.95	0.00652791	0.129824	-2.1747
580.41	0.00663475	0.131488	-2.1243
580.86	0.00659324	0.133399	-2.07171
581.31	0.00653141	0.136837	-2.02669
581.77	0.00674029	0.140918	-1.98146
582.22	0.00724853	0.144856	-1.94383
582.68	0.00763052	0.148197	-1.906
583.13	0.00759012	0.149321	-1.8758
583.58	0.00722555	0.149732	-1.84348
584.04	0.00678615	0.149649	-1.811
584.49	0.00644710	0.149145	-1.77154
584.94	0.00636403	0.148338	-1.72609
585.40	0.00659326	0.147953	-1.67758
585.85	0.00697206	0.148407	-1.62897
586.30	0.00734672	0.151145	-1.5998
586.76	0.00760552	0.155907	-1.58226
587.21	0.00763797	0.161537	-1.57051
587.66	0.00750346	0.167664	-1.56554
588.12	0.00739134	0.173799	-1.55759
588.57	0.00734879	0.179718	-1.55253
589.02	0.00721629	0.185152	-1.5455
589.48	0.00690379	0.189791	-1.54138
589.93	0.00662055	0.19204	-1.53922
590.38	0.00671315	0.193491	-1.54098
590.84	0.00720637	0.194433	-1.54373
591.29	0.00756322	0.195258	-1.55434
591.74	0.00738716	0.196527	-1.57768
592.20	0.00708068	0.19788	-1.60792
592.65	0.00705051	0.199379	-1.63823
593.10	0.00719304	0.201034	-1.66471
593.56	0.00742909	0.202888	-1.6903
594.01	0.00767834	0.205153	-1.71112
594.46	0.00771647	0.207948	-1.73791
594.91	0.00754235	0.212681	-1.76677
595.37	0.00730065	0.218982	-1.80065
595.82	0.00695714	0.224603	-1.83566
596.27	0.00652670	0.228609	-1.86789
596.73	0.00628232	0.226892	-1.89444
597.18	0.00642641	0.220903	-1.9192
597.63	0.00685147	0.213864	-1.93635
598.08	0.00740234	0.206939	-1.95662
598.54	0.00794920	0.203997	-1.96832
598.99	0.00832686	0.203606	-1.98316
599.44	0.00848533	0.204206	-1.99531
599.90	0.00833895	0.205415	-2.00867
600.35	0.00803344	0.206339	-2.02424
600.80	0.00807141	0.20715	-2.04691
601.25	0.00848595	0.207893	-2.06203
601.71	0.00883508	0.208453	-2.06963
602.16	0.00898678	0.20761	-2.05799
602.61	0.00926045	0.206519	-2.0359
603.06	0.00970783	0.205874	-2.00437
603.52	0.00992850	0.206099	-1.96534
603.97	0.00994006	0.210049	-1.93055
604.42	0.01015573	0.215293	-1.88927
604.87	0.01061702	0.220584	-1.84833
605.33	0.01105167	0.225198	-1.80483
605.78	0.01136121	0.224988	-1.76561
606.23	0.01163420	0.223199	-1.72872
606.68	0.01186373	0.22148	-1.69319
607.13	0.01200041	0.220716	-1.65514
607.59	0.01197614	0.224482	-1.61261
608.04	0.01173634	0.23069	-1.56659
608.49	0.01153133	0.238193	-1.52002
608.94	0.01156210	0.24658	-1.47389
609.40	0.01175291	0.255746	-1.4243
609.85	0.01209975	0.264973	-1.38004
610.30	0.01252014	0.273579	-1.33332
610.75	0.01281911	0.280999	-1.29001
611.20	0.01289629	0.28469	-1.24912
611.66	0.01277825	0.285702	-1.21361
612.11	0.01262065	0.285651	-1.17567
612.56	0.01255208	0.285079	-1.14313
613.01	0.01261098	0.285157	-1.11012
613.46	0.01275288	0.286107	-1.07275
613.92	0.01294477	0.287525	-1.04471
614.37	0.01324379	0.28954	-1.02014
614.82	0.01361964	0.292962	-1.0098
615.27	0.01394656	0.297976	-1.01271
615.72	0.01407676	0.30314	-1.02303
616.17	0.01395156	0.307994	-1.03685
616.63	0.01372211	0.311244	-1.05028
617.08	0.01356108	0.311097	-1.0604
617.53	0.01347563	0.310686	-1.07015
617.98	0.01326169	0.310706	-1.0766
618.43	0.01284519	0.312111	-1.0866
618.88	0.01262932	0.319096	-1.09918
619.34	0.01284161	0.327046	-1.11142
619.79	0.01297110	0.335192	-1.12235
620.24	0.01263660	0.342761	-1.13686
620.69	0.01230272	0.346587	-1.14226
621.14	0.01240844	0.348671	-1.14638
621.59	0.01258488	0.34968	-1.14824
622.04	0.01234972	0.349828	-1.15372
622.50	0.01194484	0.349947	-1.15988
622.95	0.01184245	0.349836	-1.16968
623.40	0.01198278	0.348964	-1.17334
623.85	0.01210838	0.347203	-1.17968
624.30	0.01225297	0.343625	-1.1799
624.75	0.01251090	0.337622	-1.17792
625.20	0.01286958	0.331383	-1.17179
625.65	0.01335418	0.325561	-1.16152
626.11	0.01393451	0.320867	-1.15006
626.56	0.01449054	0.319207	-1.1413
627.01	0.01481522	0.319429	-1.1255
627.46	0.01486895	0.321716	-1.11048
627.91	0.01508088	0.326245	-1.09526
628.36	0.01562297	0.335178	-1.08083
628.81	0.01615562	0.34687	-1.06524
629.26	0.01656503	0.359799	-1.05241
629.71	0.01687239	0.373239	-1.03746
630.16	0.01707842	0.385569	-1.02527
630.62	0.01739655	0.395702	-1.01099
631.07	0.01791124	0.405233	-0.998512
631.52	0.01852245	0.414215	-0.983944
631.97	0.01905124	0.422705	-0.970221
632.42	0.01925142	0.432178	-0.945633
632.87	0.01931788	0.440831	-0.923857
633.32	0.01962363	0.448226	-0.900018
633.77	0.01999009	0.453948	-0.881935
634.22	0.02023208	0.456116	-0.871568
634.67	0.02065676	0.455141	-0.875759
635.12	0.02127853	0.452492	-0.881821
635.57	0.02188421	0.448543	-0.887806
636.02	0.02251253	0.443552	-0.896651
636.47	0.02296557	0.437315	-0.899574
636.93	0.02310459	0.431216	-0.907323
637.38	0.02293432	0.425904	-0.910139
637.83	0.02243310	0.422023	-0.913888
638.28	0.02201721	0.422539	-0.918576
638.73	0.02205517	0.426242	-0.921281
639.18	0.02239852	0.431564	-0.926891
639.63	0.02272515	0.438096	-0.93346
640.08	0.02281579	0.445498	-0.945877
640.53	0.02262966	0.453583	-0.97196
640.98	0.02239105	0.461522	-0.999997
641.43	0.02229763	0.468796	-1.02804
641.88	0.02208025	0.474883	-1.05317
642.33	0.02160358	0.477254	-1.06757
642.78	0.02123097	0.476871	-1.06833
643.23	0.02096010	0.475251	-1.0701
643.68	0.02040763	0.472795	-1.06702
644.13	0.01963621	0.470052	-1.0679
644.58	0.01908184	0.468673	-1.07077
645.03	0.01895307	0.467154	-1.07468
645.48	0.01899738	0.465425	-1.07767
645.93	0.01877187	0.463418	-1.0739
646.38	0.01816420	0.460447	-1.06043
646.83	0.01758916	0.456622	-1.04314
647.28	0.01740094	0.452832	-1.02397
647.73	0.01753612	0.449357	-1.00099
648.18	0.01795385	0.446478	-0.969324
648.63	0.01852269	0.444332	-0.940685
649.08	0.01883577	0.443364	-0.909225
649.53	0.01883371	0.443921	-0.881785
649.98	0.01884754	0.446331	-0.848604
650.43	0.01911604	0.451288	-0.816525
650.88	0.01965905	0.459819	-0.77774
651.33	0.02034734	0.470656	-0.744951
651.78	0.02118312	0.483695	-0.714256
652.23	0.02222214	0.498829	-0.679801
652.68	0.02319465	0.517382	-0.643546
653.13	0.02381509	0.538588	-0.610378
653.58	0.02410360	0.560484	-0.57542
654.02	0.02404946	0.582259	-0.545514
654.47	0.02370048	0.603097	-0.510898
654.92	0.02357053	0.62067	-0.479391
655.37	0.02413185	0.635803	-0.454904
655.82	0.02511983	0.648481	-0.425724
656.27	0.02609115	0.658395	-0.402598
656.72	0.02697072	0.664656	-0.380649
657.17	0.02769608	0.662551	-0.360858
657.62	0.02813401	0.658436	-0.352996
658.07	0.02829970	0.653558	-0.342419
658.52	0.02847386	0.649162	-0.334016
658.97	0.02906729	0.648463	-0.335604
659.42	0.03018486	0.654346	-0.331563
659.87	0.03146250	0.662327	-0.334593
660.31	0.03264187	0.672039	-0.34177
660.76	0.03367723	0.683112	-0.350169
661.21	0.03429413	0.696431	-0.365654
661.66	0.03433818	0.711256	-0.389207
662.11	0.03396089	0.725372	-0.409114
662.56	0.03338409	0.737768	-0.437098
663.01	0.03274162	0.747435	-0.466328
663.46	0.03203875	0.748558	-0.497785
663.91	0.03144680	0.743742	-0.531475
664.36	0.03114016	0.736258	-0.566425
664.80	0.03107808	0.726959	-0.602641
665.25	0.03120528	0.716697	-0.641103
665.70	0.03133479	0.708593	-0.679862
666.15	0.03120362	0.701262	-0.723808
666.60	0.03087247	0.69421	-0.762201
667.05	0.03056760	0.687552	-0.799929
667.50	0.03035291	0.681403	-0.834067
667.95	0.03015873	0.675683	-0.854854
668.39	0.02979671	0.670723	-0.869131
668.84	0.02916417	0.666721	-0.881785
669.29	0.02832713	0.663848	-0.885983
669.74	0.02746590	0.662276	-0.890521
670.19	0.02700867	0.664998	-0.90419
670.64	0.02712062	0.668846	-0.910395
671.09	0.02733138	0.673042	-0.914022
671.53	0.02731502	0.676999	-0.908239
671.98	0.02731159	0.680129	-0.900864
672.43	0.02739843	0.676612	-0.878229
672.88	0.02737559	0.672162	-0.843268
673.33	0.02735762	0.667768	-0.803797
673.78	0.02736594	0.664201	-0.758845
674.22	0.02711763	0.662228	-0.714275
674.67	0.02674444	0.666518	-0.665207
675.12	0.02666044	0.673216	-0.613601
675.57	0.02685270	0.681858	-0.564341
676.02	0.02710087	0.692204	-0.510598
676.47	0.02742555	0.70401	-0.458233
676.91	0.02779924	0.716541	-0.410182
677.36	0.02790728	0.730115	-0.359611
677.81	0.02768149	0.744678	-0.311408
678.26	0.02774795	0.760125	-0.267531
678.71	0.02864796	0.776347	-0.226029
679.15	0.02999708	0.795145	-0.178118
679.60	0.03111774	0.814497	-0.143333
680.05	0.03204478	0.833308	-0.104099
680.50	0.03320847	0.850916	-0.07507019
680.95	0.03456908	0.866665	-0.04745996
681.39	0.03588820	0.875887	-0.02810849
681.84	0.03712805	0.881073	-0.01506649
682.29	0.03807152	0.884667	-0.00247842
682.74	0.03860121	0.887343	-0.00401997
683.18	0.03898611	0.889772	-0.00211678
683.63	0.03926442	0.895389	-0.00263200
684.08	0.03949581	0.903845	-0.01533501
684.53	0.04019485	0.912301	-0.02362797
684.97	0.04129370	0.920275	-0.04118645
685.42	0.04209607	0.927281	-0.06117822
685.87	0.04277612	0.931334	-0.09044287
686.32	0.04381797	0.930994	-0.124101
686.77	0.04465946	0.929513	-0.16411
687.21	0.04476616	0.927366	-0.20852
687.66	0.04444663	0.925025	-0.256358
688.11	0.04389367	0.923301	-0.302744
688.55	0.04290891	0.924701	-0.34573
689.00	0.04155016	0.92664	-0.39899
689.45	0.04029392	0.928969	-0.444951
689.90	0.03969374	0.931542	-0.491427
690.34	0.03988356	0.934211	-0.538423
690.79	0.04022909	0.936838	-0.586918
691.24	0.04002374	0.939267	-0.633987
691.69	0.03915150	0.941344	-0.674749
692.13	0.03778821	0.94292	-0.718974
692.58	0.03636024	0.943845	-0.754947
693.03	0.03508940	0.944288	-0.795366
693.47	0.03362788	0.943978	-0.82168
693.92	0.03209383	0.942377	-0.845611
694.37	0.03107166	0.93921	-0.862279
694.82	0.03061814	0.934204	-0.877547
695.26	0.03070281	0.926419	-0.884583
695.71	0.03140920	0.913821	-0.88046
696.16	0.03208146	0.899376	-0.874947
696.60	0.03184096	0.883494	-0.863165
697.05	0.03083832	0.866589	-0.843162
697.50	0.02985226	0.849072	-0.820803
697.94	0.02929965	0.829983	-0.795114
698.39	0.02912803	0.811078	-0.763167
698.84	0.02914027	0.793423	-0.730827
699.28	0.02932101	0.777777	-0.697118
699.73	0.02958120	0.764901	-0.662045
700.18	0.02946939	0.757732	-0.62854
700.62	0.02886030	0.75768	-0.594653
701.07	0.02834443	0.76113	-0.558434
701.52	0.02839508	0.767727	-0.525746
701.96	0.02882239	0.777117	-0.488779
702.41	0.02920207	0.788947	-0.456324
702.86	0.02934370	0.802625	-0.417644
703.30	0.02929595	0.818066	-0.377623
703.75	0.02929282	0.834984	-0.337242
704.20	0.02958422	0.853078	-0.303338
704.64	0.02998888	0.872045	-0.267127
705.09	0.03027156	0.892532	-0.242282
705.54	0.03050960	0.914321	-0.218065
705.98	0.03062845	0.935468	-0.199362
706.43	0.03074103	0.955245	-0.183244
706.88	0.03111980	0.972921	-0.17167
707.32	0.03158884	0.987765	-0.16757
707.77	0.03209900	0.995744	-0.163135
708.21	0.03258489	0.999688	-0.162275
708.66	0.03250476	1	-0.167921
709.11	0.03183152	0.996685	-0.176171
709.55	0.03122126	0.98975	-0.186051
710.00	0.03115071	0.978634	-0.201469
710.44	0.03143337	0.962786	-0.215593
710.89	0.03140414	0.943788	-0.23819
711.34	0.03099391	0.92199	-0.260475
711.78	0.03045378	0.897747	-0.28538
712.23	0.02946452	0.87141	-0.309978
712.67	0.02814558	0.842788	-0.331341
713.12	0.02729231	0.81263	-0.355333
713.57	0.02693036	0.78169	-0.376095
714.01	0.02625542	0.750468	-0.402421
714.46	0.02506839	0.719465	-0.425523
714.90	0.02391209	0.689253	-0.453216
715.35	0.02300515	0.662822	-0.482574
715.80	0.02207822	0.637615	-0.511646
716.24	0.02111030	0.613627	-0.546293
716.69	0.02044470	0.590862	-0.576753
717.13	0.02007609	0.569317	-0.607912
717.58	0.01960891	0.54923	-0.638794
718.02	0.01883884	0.530823	-0.66745
718.47	0.01768512	0.513459	-0.693882
718.92	0.01606463	0.497005	-0.720046
719.36	0.01450132	0.481324	-0.744967
719.81	0.01386815	0.466278	-0.764741
720.25	0.01402262	0.451167	-0.777419
720.70	0.01404635	0.436087	-0.791791
721.14	0.01364047	0.421516	-0.800048
721.59	0.01295098	0.4075	-0.800238
722.03	0.01201311	0.394089	-0.800177
722.48	0.01129058	0.381323	-0.794008
722.92	0.01115806	0.370506	-0.783686
723.37	0.01103956	0.360584	-0.77019
723.81	0.01061720	0.350928	-0.754499
724.26	0.01049572	0.341295	-0.735638
724.71	0.01099681	0.331434	-0.711658
725.15	0.01160333	0.321098	-0.691349
725.60	0.01184246	0.306868	-0.663972
726.04	0.01192906	0.291996	-0.638317
726.49	0.01195851	0.277074	-0.609504
726.93	0.01145986	0.262464	-0.575583
727.38	0.01033479	0.248528	-0.538509
727.82	0.00910257	0.235728	-0.501213
728.27	0.00829089	0.226176	-0.441238
728.71	0.00822646	0.218016	-0.376162
729.16	0.00886122	0.21126	-0.313802
729.60	0.00966078	0.205921	-0.252206
730.05	0.00994151	0.202011	-0.192353
730.49	0.00954518	0.199611	-0.140104
730.93	0.00906082	0.199129	-0.102298
731.38	0.00904052	0.200008	-0.07405310
731.82	0.00928734	0.202165	-0.04756012
732.27	0.00923948	0.205518	-0.02575044
732.71	0.00897691	0.209984	-0.01546212
733.16	0.00910664	0.21547	-0.00400194
733.60	0.00983279	0.221843	-0.00699700
734.05	0.01108460	0.229097	-0.00687127
734.49	0.01277314	0.237166	-0.01436899
734.94	0.01448432	0.245977	-0.02265630
735.38	0.01565546	0.255464	-0.03368836
735.83	0.01628201	0.265688	-0.04551410
736.27	0.01689767	0.277265	-0.05715898
736.72	0.01772382	0.289127	-0.07057815
737.16	0.01861558	0.301046	-0.07991423
737.60	0.01957269	0.312787	-0.09493485
738.05	0.02069993	0.324121	-0.103923
738.49	0.02206174	0.334662	-0.114694
738.94	0.02384686	0.342362	-0.124319
739.38	0.02600140	0.349339	-0.125965
739.83	0.02808054	0.355716	-0.130375
740.27	0.02997127	0.361617	-0.135599
740.71	0.03164415	0.367167	-0.139685
741.16	0.03275314	0.372491	-0.142636
741.60	0.03324144	0.379792	-0.150312
742.05	0.03330710	0.386874	-0.156856
742.49	0.03310919	0.393414	-0.163246
742.93	0.03298568	0.399184	-0.167532
743.38	0.03291371	0.403953	-0.164832
743.82	0.03249642	0.407494	-0.16296
744.27	0.03222257	0.406632	-0.151177
744.71	0.03282632	0.403796	-0.128508
745.15	0.03377775	0.400093	-0.107649
745.60	0.03425998	0.395879	-0.08469607
746.04	0.03430197	0.391512	-0.05574528
746.49	0.03402781	0.387351	-0.02177467
746.93	0.03329345	0.384636	0.00549520
747.37	0.03250526	0.383314	0.03680474
747.82	0.03243364	0.382903	0.06824594
748.26	0.03302013	0.383526	0.09786391
748.71	0.03332689	0.38531	0.131516
749.15	0.03273932	0.388379	0.166272
749.59	0.03179613	0.393956	0.205058
750.04	0.03134771	0.403034	0.243967
750.48	0.03152016	0.413117	0.289833
750.92	0.03217062	0.423835	0.331913
751.37	0.03305389	0.434819	0.375087
751.81	0.03347314	0.4457	0.419353
752.25	0.03320933	0.456044	0.457875
752.70	0.03269940	0.463797	0.494556
753.14	0.03196826	0.470623	0.527443
753.58	0.03103855	0.47643	0.565321
754.03	0.03031951	0.48113	0.592565
754.47	0.03004007	0.484631	0.620892
754.91	0.03032366	0.486843	0.649323
755.36	0.03086789	0.487462	0.676881
755.80	0.03092098	0.48654	0.70161
756.24	0.03031073	0.484137	0.724486
756.69	0.02922607	0.480212	0.743554
757.13	0.02771871	0.47472	0.759789
757.57	0.02609493	0.467619	0.773188
758.02	0.02495718	0.457966	0.778869
758.46	0.02493377	0.444396	0.779759
758.90	0.02601702	0.429688	0.768044
759.35	0.02726082	0.414274	0.759347
759.79	0.02786335	0.398589	0.745854
760.23	0.02802830	0.383063	0.732447
760.67	0.02821101	0.368127	0.712288
761.12	0.02801365	0.35815	0.696118
761.56	0.02687279	0.349949	0.683936
762.00	0.02523622	0.342381	0.664021
762.45	0.02359641	0.335182	0.646136
762.89	0.02204432	0.328089	0.624423
763.33	0.02119194	0.320838	0.600831
763.77	0.02133868	0.311975	0.57536
764.22	0.02171063	0.299991	0.546054
764.66	0.02150729	0.287756	0.512914
765.10	0.02060998	0.275542	0.478866
765.55	0.01915171	0.263623	0.444886
765.99	0.01705328	0.252273	0.405113
766.43	0.01464866	0.241765	0.366382
766.87	0.01279547	0.233366	0.321855
767.32	0.01164414	0.226546	0.279343
767.76	0.01091183	0.221066	0.231033
768.20	0.01062526	0.217014	0.183759
768.64	0.01050714	0.214477	0.136543
769.09	0.01032910	0.213544	0.09524309
769.53	0.01042494	0.214689	0.05497499
769.97	0.01069130	0.21988	0.02062022
770.41	0.01063996	0.226519	-0.00782256
770.86	0.01066648	0.23432	-0.03426096
771.30	0.01139128	0.242998	-0.05479007
771.74	0.01217983	0.252269	-0.07429403
772.18	0.01212845	0.261848	-0.09082105
772.62	0.01184210	0.271086	-0.09851307
773.07	0.01213709	0.279711	-0.10616
773.51	0.01243935	0.287941	-0.107905
773.95	0.01230695	0.295591	-0.100819
774.39	0.01236340	0.302481	-0.09466823
774.83	0.01281432	0.308429	-0.08554854
775.28	0.01281192	0.313253	-0.07150788
775.72	0.01221613	0.315058	-0.04668813
776.16	0.01195430	0.315042	-0.02085619
776.60	0.01224749	0.313882	0.01282262
777.04	0.01273683	0.3117	0.04653455
777.49	0.01333571	0.308615	0.07734867
777.93	0.01393366	0.304749	0.113076
778.37	0.01417294	0.30022	0.144927
778.81	0.01370827	0.294621	0.174853
779.25	0.01279838	0.288658	0.198946
779.70	0.01214863	0.282536	0.222089
780.14	0.01173951	0.276443	0.246232
780.58	0.01091061	0.270573	0.266493
781.02	0.00973591	0.265117	0.285799
781.46	0.00893576	0.260506	0.303174
781.90	0.00876831	0.257985	0.313732
782.35	0.00912845	0.256221	0.316496
782.79	0.01001222	0.255205	0.32416
783.23	0.01122296	0.254925	0.330864
783.67	0.01254420	0.255372	0.336607
784.11	0.01409300	0.256534	0.344317
784.55	0.01556775	0.258655	0.35204
784.99	0.01623719	0.262138	0.364657
785.44	0.01603384	0.266154	0.378261
785.88	0.01566359	0.270571	0.393828
786.32	0.01596389	0.275257	0.405497
786.76	0.01704177	0.280082	0.418149
787.20	0.01797284	0.284915	0.431785
787.64	0.01808171	0.288715	0.441519
788.08	0.01771889	0.29048	0.441491
788.52	0.01728387	0.292312	0.446349
788.97	0.01661397	0.29443	0.44535
789.41	0.01547231	0.297048	0.446304
789.85	0.01419713	0.300383	0.440422
790.29	0.01323787	0.304653	0.439421
790.73	0.01235115	0.310905	0.430605
791.17	0.01158128	0.320159	0.422762
791.61	0.01153738	0.330588	0.416867
792.05	0.01213849	0.342089	0.403155
792.49	0.01327047	0.354571	0.394318
792.94	0.01563595	0.367933	0.387427
793.38	0.01930212	0.382077	0.37955
793.82	0.02293046	0.397911	0.37557
794.26	0.02521593	0.416992	0.379392
794.70	0.02596598	0.435997	0.382225
795.14	0.02611663	0.454377	0.392858
795.58	0.02681782	0.471579	0.400547
796.02	0.02790094	0.487054	0.414081
796.46	0.02868547	0.50025	0.429552
796.90	0.02935299	0.509643	0.446959
797.34	0.03013618	0.510153	0.474114
797.78	0.03087091	0.507616	0.50418
798.22	0.03101734	0.502266	0.53618
798.66	0.02956038	0.494334	0.572065
799.11	0.02654588	0.484052	0.606952
799.55	0.02398583	0.471654	0.64084
799.99	0.02329515	0.457372	0.676657
800.43	0.02351214	0.439949	0.708543
800.87	0.02348805	0.421232	0.738451
801.31	0.02310698	0.401674	0.768333
801.75	0.02227379	0.381689	0.799164
802.19	0.02079671	0.36169	0.832896
802.63	0.01880404	0.342086	0.862693
803.07	0.01744055	0.323288	0.888554
803.51	0.01752113	0.308148	0.91829
803.95	0.01771499	0.295267	0.945065
804.39	0.01701484	0.283772	0.9679
804.83	0.01624426	0.273691	0.991678
805.27	0.01620505	0.265052	1.01347
805.71	0.01687449	0.257883	1.03229
806.15	0.01783056	0.252214	1.04718
806.59	0.01865293	0.248545	1.05812
807.03	0.01893929	0.247003	1.06121
807.47	0.01895074	0.246872	1.06426
807.91	0.01949058	0.248058	1.06238
808.35	0.02032066	0.250466	1.0595
808.79	0.02090849	0.254003	1.05266
809.23	0.02199199	0.258573	1.0448
809.67	0.02410456	0.2641	1.03202
810.11	0.02581887	0.270684	1.02603
810.55	0.02573536	0.277992	1.01316
810.99	0.02527334	0.285906	1.00122
811.43	0.02671556	0.294306	0.98728
811.87	0.02975133	0.303073	0.972317
812.31	0.03226804	0.312085	0.956329
812.75	0.03333328	0.321228	0.936386
813.19	0.03410124	0.3307	0.912487
813.63	0.03528643	0.340206	0.885608
814.07	0.03583946	0.349394	0.859654
814.51	0.03558524	0.358089	0.832671
814.95	0.03580012	0.366119	0.802706
815.38	0.03657792	0.37331	0.770734
815.82	0.03675728	0.379487	0.736754
816.26	0.03602868	0.384135	0.704673
816.70	0.03486802	0.385643	0.667653
817.14	0.03354800	0.385881	0.632529
817.58	0.03230969	0.384908	0.597347
818.02	0.03148349	0.382783	0.563084
818.46	0.03148498	0.379562	0.527785
818.90	0.03220313	0.375306	0.49145
819.34	0.03266960	0.370069	0.456031
819.78	0.03236600	0.363515	0.427386
820.22	0.03162922	0.355878	0.397703
820.66	0.03076910	0.347545	0.367958
821.10	0.02981403	0.338643	0.339125
821.53	0.02879516	0.329302	0.314135
821.97	0.02752850	0.319645	0.288103
822.41	0.02571332	0.309802	0.259076
822.85	0.02352137	0.299899	0.231935
823.29	0.02148374	0.290537	0.198868
823.73	0.01957113	0.281328	0.161828
824.17	0.01770181	0.272338	0.132531
824.61	0.01687692	0.263646	0.09828214
825.05	0.01698201	0.255328	0.06494020
825.48	0.01664860	0.24746	0.03641056
825.92	0.01659979	0.24012	0.01171597
826.36	0.01799965	0.233124	-0.01207393
826.80	0.01908017	0.226244	-0.02519419
827.24	0.01794201	0.22023	-0.03252831
827.68	0.01604946	0.215242	-0.03798320
828.12	0.01580769	0.211445	-0.03960641
828.56	0.01685787	0.208999	-0.03837515
828.99	0.01755865	0.208067	-0.03819634
829.43	0.01799816	0.20881	-0.03028156
829.87	0.01875895	0.213395	-0.02244398
830.31	0.01919614	0.22142	-0.00882486
830.75	0.01927628	0.231052	0.00178609
831.19	0.02007657	0.24209	0.01720074
831.63	0.02096313	0.254336	0.03839500
832.06	0.02100960	0.26759	0.05462606
832.50	0.02160029	0.281651	0.07565891
832.94	0.02325018	0.296321	0.09465699
833.38	0.02456222	0.311537	0.118456
833.82	0.02524421	0.327001	0.141195
834.26	0.02597442	0.342442	0.168733
834.69	0.02707478	0.357645	0.190328
835.13	0.02873898	0.372391	0.209885
835.57	0.03084807	0.386464	0.232287
836.01	0.03250055	0.399644	0.254603
836.45	0.03258057	0.411717	0.271949
836.88	0.03102012	0.420164	0.283349
837.32	0.02912182	0.426853	0.296614
837.76	0.02809661	0.432261	0.302955
838.20	0.02757472	0.436436	0.30823
838.64	0.02704327	0.439422	0.313416
839.07	0.02716109	0.441267	0.312653
839.51	0.02813655	0.442016	0.313752
839.95	0.02904355	0.441716	0.313783
840.39	0.02934563	0.439376	0.309817
840.83	0.02966064	0.436038	0.300875
841.26	0.02972183	0.431997	0.295746
841.70	0.02798885	0.427409	0.286618
842.14	0.02500700	0.42243	0.278373
842.58	0.02311808	0.417219	0.266126
843.01	0.02249630	0.411931	0.257691
843.45	0.02167721	0.406724	0.244278
843.89	0.02128173	0.402495	0.236627
844.33	0.02249941	0.398718	0.229857
844.76	0.02391712	0.395344	0.219083
845.20	0.02448887	0.39245	0.213094
845.64	0.02518958	0.390111	0.204076
846.08	0.02547051	0.388402	0.199843
846.51	0.02412146	0.387401	0.190628
846.95	0.02254429	0.387183	0.183266
847.39	0.02272510	0.388802	0.178733
847.83	0.02443583	0.391589	0.172146
848.26	0.02608745	0.39518	0.167411
848.70	0.02701760	0.399536	0.162574
849.14	0.02738274	0.404612	0.157635
849.58	0.02742563	0.410367	0.153569
850.01	0.02848797	0.416758	0.154282
850.45	0.03171938	0.423743	0.150986
850.89	0.03547669	0.431895	0.153444
851.32	0.03656148	0.440947	0.150914
851.76	0.03425956	0.450319	0.154139
852.20	0.03131202	0.459874	0.15921
852.64	0.03016773	0.469475	0.166129
853.07	0.03043578	0.478987	0.170987
853.51	0.03134676	0.488275	0.176715
853.95	0.03307136	0.497199	0.18917
854.38	0.03428262	0.505163	0.200541
854.82	0.03385059	0.511617	0.21571
855.26	0.03342304	0.517459	0.230769
855.69	0.03418331	0.522672	0.244742
856.13	0.03515180	0.527242	0.262511
856.57	0.03562977	0.531153	0.283099
857.00	0.03576681	0.534389	0.306505
857.44	0.03578169	0.536936	0.328824
857.88	0.03599887	0.538756	0.352984
858.31	0.03614428	0.538244	0.380938
858.75	0.03640628	0.537137	0.412685
859.19	0.03797090	0.53556	0.442365
859.62	0.03971169	0.533642	0.469003
860.06	0.03948115	0.531508	0.503338
860.50	0.03895414	0.529285	0.53463
860.93	0.04114621	0.527099	0.569712
861.37	0.04527829	0.525077	0.600773
861.81	0.04863417	0.524791	0.631718
862.24	0.05043749	0.525709	0.662547
862.68	0.05114260	0.526852	0.692282
863.12	0.05133576	0.528149	0.720924
863.55	0.05166691	0.529526	0.749448
863.99	0.05157060	0.530911	0.776878
864.42	0.05031914	0.532231	0.804189
864.86	0.04859192	0.533414	0.831381
865.30	0.04758081	0.534311	0.857478
865.73	0.04803473	0.534468	0.880526
866.17	0.04903765	0.534321	0.9015
866.61	0.04852627	0.533842	0.92333
867.04	0.04677616	0.533003	0.94211
867.48	0.04610645	0.531778	0.961746
867.91	0.04668963	0.530139	0.976377
868.35	0.04708910	0.528058	0.991863
868.79	0.04718104	0.525508	1.00332
869.22	0.04741288	0.522071	1.01368
869.66	0.04749237	0.517868	1.02196
870.09	0.04714266	0.513198	1.02719
870.53	0.04671963	0.508089	1.02936
870.97	0.04687154	0.502567	1.03141
871.40	0.04788217	0.496658	1.03139
871.84	0.04884544	0.49039	1.0283
872.27	0.04838166	0.483789	1.02314
872.71	0.04646506	0.476882	1.01883
873.14	0.04434148	0.46879	1.00952
873.58	0.04311076	0.460475	1.00203
874.02	0.04322856	0.452082	0.985618
874.45	0.04414688	0.443713	0.972013
874.89	0.04445035	0.435471	0.956328
875.32	0.04436104	0.427459	0.939538
875.76	0.04615331	0.419778	0.923597
876.19	0.04936693	0.412534	0.90655
876.63	0.05071968	0.406422	0.888398
877.06	0.04965675	0.402719	0.864258
877.50	0.04744063	0.399527	0.844871
877.93	0.04375067	0.396761	0.825353
878.37	0.03888299	0.394332	0.805706
878.81	0.03566695	0.392155	0.783975
879.24	0.03578059	0.390142	0.765043
879.68	0.03712406	0.388207	0.747932
880.11	0.03834584	0.386263	0.731667
880.55	0.04029708	0.383518	0.717223
880.98	0.04174757	0.379795	0.708506
881.42	0.04032713	0.375974	0.700633
881.85	0.03601921	0.372089	0.69458
882.29	0.03112631	0.368171	0.691324
882.72	0.02864900	0.364255	0.689888
883.16	0.02970533	0.360373	0.689294
883.59	0.03241338	0.356559	0.689543
884.03	0.03458186	0.352845	0.692587
884.46	0.03598692	0.349324	0.696473
884.90	0.03690253	0.346008	0.697295
885.33	0.03721082	0.34288	0.699934
885.77	0.03766070	0.339965	0.706343
886.20	0.03871225	0.337288	0.713594
886.64	0.03926593	0.334873	0.722661
887.07	0.03869541	0.332747	0.734522
887.51	0.03806190	0.330935	0.747222
887.94	0.03805310	0.329462	0.762715
888.38	0.03795999	0.329062	0.781976
888.81	0.03744537	0.329438	0.805983
889.24	0.03659225	0.330091	0.831805
889.68	0.03484848	0.330964	0.858466
890.11	0.03284050	0.331995	0.886941
890.55	0.03243769	0.333125	0.91723
890.98	0.03381602	0.334295	0.943474
891.42	0.03461126	0.335443	0.976415
891.85	0.03248185	0.336511	1.00629
892.29	0.02928284	0.336966	1.03992
892.72	0.02842988	0.336907	1.07147
893.15	0.02933243	0.33668	1.1058
893.59	0.03031898	0.336286	1.13609
894.02	0.03138573	0.335725	1.16916
894.46	0.03300732	0.334997	1.19917
894.89	0.03664890	0.334101	1.22903
895.33	0.04193548	0.333038	1.25582
895.76	0.04497841	0.331808	1.28052
896.19	0.04315426	0.330455	1.30117
896.63	0.03799473	0.328988	1.31972
897.06	0.03363493	0.327343	1.33422
897.50	0.03206840	0.325514	1.34663
897.93	0.03111395	0.323492	1.35792
898.36	0.02910359	0.321271	1.36613
898.80	0.02715973	0.318844	1.37127
899.23	0.02656532	0.316203	1.37432
899.67	0.02824082	0.313341	1.37526
900.10	0.03272352	0.310162	1.37607
900.53	0.03838022	0.306459	1.37086
900.97	0.04230918	0.302546	1.36552
901.40	0.04291447	0.298443	1.35514
901.84	0.04127701	0.294169	1.3456
902.27	0.03934583	0.289744	1.332
902.70	0.03755438	0.285188	1.32021
903.14	0.03636766	0.28052	1.30633
903.57	0.03686413	0.27576	1.28838
904.00	0.03829372	0.270928	1.27225
904.44	0.03724309	0.265503	1.25206
904.87	0.03332970	0.260039	1.23271
905.30	0.03166702	0.254637	1.2093
905.74	0.03351673	0.249359	1.18671
906.17	0.03550310	0.244265	1.16301
906.60	0.03678144	0.239414	1.14111
907.04	0.03728894	0.234866	1.11711
907.47	0.03673733	0.230682	1.08905
907.91	0.03532012	0.22692	1.06475
908.34	0.03345537	0.224841	1.03933
908.77	0.03326135	0.224284	1.01375
909.20	0.03518055	0.224101	0.98901
909.64	0.03707100	0.224199	0.963138
910.07	0.03840210	0.224486	0.941024
910.50	0.03848577	0.22487	0.91876
910.94	0.03509161	0.225259	0.896346
911.37	0.02830549	0.22556	0.873781
911.80	0.02142271	0.225681	0.854973
912.24	0.01766387	0.225422	0.834061
912.67	0.01804997	0.222608	0.82374
913.10	0.02189530	0.219493	0.807409
913.54	0.02749295	0.216141	0.797763
913.97	0.03101647	0.212612	0.788943
914.40	0.02924628	0.208968	0.780947
914.83	0.02592572	0.20527	0.773776
915.27	0.02581109	0.201581	0.775243
915.70	0.02708868	0.197961	0.774604
916.13	0.02688550	0.194472	0.773813
916.57	0.02485171	0.191841	0.782635
917.00	0.02242597	0.190178	0.790328
917.43	0.02103146	0.188698	0.804705
917.86	0.02062244	0.187369	0.822834
918.30	0.02182979	0.18616	0.837881
918.73	0.02430608	0.18504	0.855705
919.16	0.02463787	0.183978	0.874351
919.59	0.02231658	0.182943	0.897726
920.03	0.02133902	0.181905	0.918995
920.46	0.02255248	0.180832	0.945969
920.89	0.02365933	0.179136	0.970836
921.32	0.02335385	0.177235	0.998478
921.76	0.02140917	0.175285	1.02499
922.19	0.01934135	0.173302	1.05135
922.62	0.01942928	0.171298	1.0795
923.05	0.02315037	0.169288	1.10359
923.49	0.02819793	0.167285	1.12949
923.92	0.02929638	0.165303	1.16108
924.35	0.02618989	0.163357	1.18373
924.78	0.02372421	0.161471	1.20916
925.22	0.02395303	0.160027	1.22955
925.65	0.02398959	0.158636	1.25759
926.08	0.02224828	0.157286	1.27473
926.51	0.02123434	0.155967	1.29465
926.94	0.02169601	0.154667	1.31442
927.38	0.02116471	0.153376	1.32523
927.81	0.01774758	0.152083	1.3398
928.24	0.01152193	0.150778	1.3503
928.67	0.00568357	0.149449	1.36065
929.10	0.00483434	0.148075	1.36596
929.54	0.01140695	0.1466	1.36818
929.97	0.02319104	0.145074	1.36633
930.40	0.03173078	0.143491	1.36042
930.83	0.03146325	0.141843	1.35827
931.26	0.02668789	0.140126	1.35204
931.69	0.02159142	0.13833	1.33687
932.13	0.01619449	0.136452	1.32936
932.56	0.01280414	0.134482	1.31387
932.99	0.01384754	0.132416	1.29823
933.42	0.01808105	0.130114	1.27656
933.85	0.02356195	0.127188	1.25767
934.28	0.02700846	0.124193	1.23569
934.72	0.02420669	0.12116	1.20867
935.15	0.01646872	0.118122	1.18247
935.58	0.01153887	0.115111	1.16001
936.01	0.01476273	0.112161	1.13154
936.44	0.02307815	0.109303	1.09998
936.87	0.03056167	0.106571	1.06923
937.30	0.03416879	0.103997	1.04223
937.74	0.03500506	0.101733	1.01605
938.17	0.03453895	0.100398	0.979939
938.60	0.03109999	0.09926492	0.951483
939.03	0.02676816	0.09831631	0.919938
939.46	0.02532268	0.09753600	0.892138
939.89	0.02417175	0.09690749	0.862226
940.32	0.02163009	0.09641421	0.833129
940.75	0.01839295	0.09603969	0.808755
941.19	0.01363913	0.09576747	0.781291
941.62	0.01226887	0.09558107	0.755619
942.05	0.01762859	0.09546402	0.733692
942.48	0.02316769	0.09560525	0.716488
942.91	0.02413955	0.09577566	0.699122
943.34	0.01852748	0.09594241	0.684525
943.77	0.00727074	0.09607691	0.669767
944.20	0.00040229	0.09615059	0.66266
944.63	0.00321382	0.09613491	0.656368
945.06	0.00706090	0.09600131	0.644055
945.49	0.00673612	0.09572129	0.639394
945.93	0.00878389	0.09526634	0.636523
946.36	0.01696241	0.09460792	0.637397
946.79	0.02735490	0.09286842	0.635179
947.22	0.03544372	0.09057422	0.6328
947.65	0.03887651	0.08810411	0.641
948.08	0.03835923	0.08549721	0.646108
948.51	0.03614520	0.08279186	0.648125
948.94	0.03521015	0.08002718	0.658768
949.37	0.03812657	0.07724182	0.669249
949.80	0.04258252	0.07447371	0.68152
950.23	0.04501541	0.07176265	0.695582
950.66	0.04355915	0.06914617	0.714364
951.09	0.03621364	0.06696445	0.729076
951.52	0.02623593	0.06550741	0.751439
951.95	0.02333638	0.06419847	0.779497
952.38	0.02988343	0.06302750	0.806417
952.81	0.03531795	0.06198555	0.829266
953.24	0.03256560	0.06106266	0.857812
953.67	0.02549815	0.06024971	0.886194
954.10	0.01980044	0.05953689	0.911484
954.53	0.01467492	0.05891494	0.939539
954.96	0.00503666	0.05837435	0.966454
955.39	0.00000000	0.05790558	0.9893
955.82	0.00000000	0.05748520	1.00808
956.25	0.00000000	0.05711637	1.02083
956.68	0.00000000	0.05679259	1.03732
957.11	0.00000000	0.05650526	1.04779
957.54	0.00000000	0.05624580	1.05615
957.97	0.00196120	0.05600567	1.06629
958.40	0.01028395	0.05577630	1.07236
958.83	0.01581972	0.05554906	1.07339
959.26	0.01494358	0.05531539	1.07913
959.69	0.01167910	0.05506677	1.08081
960.12	0.00922503	0.05468942	1.08329
960.55	0.00601881	0.05402543	1.07683
960.98	0.00310704	0.05334514	1.06726
961.41	0.00475132	0.05265943	1.0634
961.84	0.01112912	0.05197919	1.05057
962.27	0.02029856	0.05131515	1.0415
962.70	0.03022186	0.05067814	1.02834
963.13	0.03312008	0.05007909	1.01601
963.56	0.02622805	0.04952881	1.00155
963.99	0.01927534	0.04903806	0.983996
964.42	0.01545469	0.04861764	0.964326
964.85	0.01275098	0.04868540	0.942538
965.28	0.01460496	0.04910147	0.922537
965.71	0.01846318	0.04956474	0.898465
966.14	0.01739153	0.05005044	0.878134
966.57	0.01301410	0.05053397	0.850802
967.00	0.01148033	0.05099043	0.826234
967.43	0.01272098	0.05139521	0.800524
967.85	0.01182610	0.05172361	0.775625
968.28	0.00732031	0.05195088	0.752514
968.71	0.00267680	0.05205239	0.726307
969.14	0.00042318	0.05200343	0.704817
969.57	0.00000000	0.05085572	0.676326
970.00	0.00000000	0.04931156	0.662317
970.43	0.00032996	0.04764761	0.641307
970.86	0.00870797	0.04589894	0.626967
971.29	0.01081291	0.04410015	0.605625
971.72	0.01124646	0.04228631	0.587046
972.15	0.01578252	0.04049196	0.571231
972.57	0.02330093	0.03875217	0.554274
973.00	0.02926905	0.03710143	0.538127
973.43	0.03146609	0.03557477	0.519861
973.86	0.03276714	0.03420670	0.504358
974.29	0.03309819	0.03421859	0.488689
974.72	0.02983291	0.03456723	0.466018
975.15	0.02743898	0.03505385	0.444157
975.58	0.02975561	0.03564555	0.426036
976.00	0.03241126	0.03630936	0.410679
976.43	0.03107082	0.03701215	0.393201
976.86	0.02400536	0.03772129	0.376534
977.29	0.01296037	0.03840364	0.361654
977.72	0.00439823	0.03902632	0.352466
978.15	0.00264273	0.03955652	0.345065
978.58	0.00842412	0.03996128	0.336521
979.00	0.01833721	0.03921505	0.337576
979.43	0.02231629	0.03814574	0.348229
979.86	0.01807105	0.03695664	0.358716
980.29	0.01630140	0.03567234	0.36513
980.72	0.02123281	0.03431719	0.38212
981.15	0.02786271	0.03291588	0.395036
981.57	0.03128589	0.03149274	0.414622
982.00	0.03057022	0.03007227	0.434041
982.43	0.02964508	0.02867915	0.447433
982.86	0.03083930	0.02733787	0.461635
983.29	0.03102027	0.02607268	0.482506
983.72	0.02705809	0.02545609	0.496375
984.14	0.02260732	0.02517248	0.509099
984.57	0.02389098	0.02497607	0.518727
985.00	0.03350768	0.02485390	0.527212
985.43	0.04875542	0.02479304	0.537482
985.86	0.06252004	0.02478057	0.549539
986.28	0.06764750	0.02480354	0.558499
986.71	0.05784742	0.02484904	0.570221
987.14	0.03552107	0.02490413	0.578846
987.57	0.01883054	0.02495592	0.593164
987.99	0.02006081	0.02499149	0.605361
988.42	0.02943237	0.02481775	0.624228
988.85	0.03367568	0.02437908	0.656598
989.28	0.03191259	0.02391255	0.676107
989.71	0.02960199	0.02342445	0.707166
990.13	0.02616356	0.02292120	0.72927
990.56	0.01875432	0.02240916	0.750229
990.99	0.01147129	0.02189462	0.778834
991.42	0.00669184	0.02138392	0.798483
991.84	0.00336541	0.02088349	0.816987
992.27	0.00478333	0.02039960	0.834348
992.70	0.01547691	0.01993866	0.844705
993.13	0.03322660	0.01951924	0.852942
993.55	0.04649569	0.01934792	0.831714
993.98	0.04542594	0.01920799	0.814226
994.41	0.03128603	0.01909538	0.783875
994.84	0.01171242	0.01900604	0.760192
995.26	0.00000000	0.01893595	0.731459
995.69	0.00000000	0.01888106	0.700605
996.12	0.00000000	0.01883734	0.668608
996.55	0.00265784	0.01880076	0.63449
996.97	0.01675843	0.01876728	0.600204
997.40	0.01542091	0.01873288	0.568681
997.83	0.01384403	0.01869352	0.536014
998.25	0.02068578	0.01858760	0.513921
998.68	0.02833485	0.01842356	0.502403
999.11	0.03293169	0.01824965	0.491694
999.53	0.03287975	0.01806654	0.482771
999.96	0.02966650	0.01787490	0.47368
1000.39	0.02601308	0.01767547	0.464422
1000.82	0.02056639	0.01746891	0.457926
1001.24	0.01626035	0.01725593	0.450286
1001.67	0.01816358	0.01703722	0.440526
1002.10	0.02361117	0.01681350	0.429621
1002.52	0.02845553	0.01658541	0.419526
1002.95	0.03220051	0.01635369	0.40438
1003.38	0.03074074	0.01607574	0.372465
1003.80	0.02329695	0.01579348	0.344289
1004.23	0.01865931	0.01551354	0.310086
1004.66	0.01585870	0.01523873	0.273762
1005.08	0.00416756	0.01497177	0.239224
1005.51	0.00000000	0.01471549	0.206472
1005.94	0.00000000	0.01447260	0.171599
1006.36	0.00534833	0.01424590	0.135582
1006.79	0.01843837	0.01403812	0.10135
1007.22	0.02814567	0.01385206	0.06890490
1007.64	0.03366092	0.01369046	0.03336217
1008.07	0.03949350	0.01359332	0.00546449
1008.50	0.04611744	0.01371721	-0.00990530
1008.92	0.04512057	0.01386270	-0.03032533
1009.35	0.03806032	0.01402268	-0.04700652
1009.77	0.03540762	0.01418999	-0.05701919
1010.20	0.04101038	0.01435751	-0.06817581
1010.63	0.04779114	0.01451813	-0.08145295
1011.05	0.04481973	0.01466465	-0.08610840
1011.48	0.02678921	0.01479003	-0.09581403
1011.91	0.00110307	0.01488709	-0.102757
1012.33	0.00000000	0.01494875	-0.110845
1012.76	0.01254450	0.01496788	-0.11324
1013.18	0.02942424	0.01485588	-0.120685
1013.61	0.01947054	0.01447849	-0.122438
1014.04	0.00000000	0.01405256	-0.122406
1014.46	0.00000000	0.01358329	-0.123517
1014.89	0.00000000	0.01307597	-0.125772
1015.31	0.01740970	0.01253578	-0.127218
1015.74	0.04792627	0.01196803	-0.125901
1016.16	0.06919526	0.01137785	-0.128658
1016.59	0.07297165	0.01077058	-0.130605
1017.02	0.07289538	0.01015136	-0.13272
1017.44	0.07704159	0.00952540	-0.134025
1017.87	0.07708170	0.00889810	-0.139403
1018.29	0.07560594	0.00829770	-0.144949
1018.72	0.07821861	0.00777055	-0.140896
1019.14	0.08181732	0.00725317	-0.144823
1019.57	0.08785892	0.00674707	-0.14794
1020.00	0.09629056	0.00625389	-0.157084
1020.42	0.100801	0.00577513	-0.169324
1020.85	0.09711861	0.00531244	-0.182708
1021.27	0.08320988	0.00486732	-0.200166
1021.70	0.05941147	0.00444135	-0.224626
1022.12	0.03493816	0.00403622	-0.254136
1022.55	0.02336354	0.00365333	-0.288696
1022.97	0.03676718	0.00329434	-0.333188
1023.40	0.07434782	0.00295959	-0.388589
1023.82	0.104856	0.00264232	-0.471501
1024.25	0.09940548	0.00235409	-0.565322
1024.68	0.06971399	0.00209699	-0.662239
1025.10	0.04387217	0.00187293	-0.770065
1025.53	0.03382548	0.00168393	-0.879035
1025.95	0.02618761	0.00153200	-0.991101
1026.38	0.00645191	0.00141916	-1.10919
1026.80	0.00000000	0.00134739	-1.22745
1027.23	0.01680591	0.00131868	-1.34978
1027.65	0.05603736	0.00133505	-1.46838
1028.08	0.06936807	0.00139847	-1.59202
1028.50	0.05551372	0.00151099	-1.71583
1028.93	0.04822425	0.00187442	-1.83003
1029.35	0.06314659	0.00232350	-1.94343
1029.78	0.08994532	0.00281068	-2.05798
1030.20	0.1029	0.00332836	-2.16292
1030.62	0.08377285	0.00386920	-2.26803
1031.05	0.04415724	0.00442560	-2.3733
1031.47	0.00912422	0.00499040	-2.47289
1031.90	0.00000000	0.00555585	-2.57068
1032.32	0.00000000	0.00611463	-2.65985
1032.75	0.00000000	0.00665916	-2.75017
1033.17	0.00000000	0.00718229	-2.82796
1033.60	0.02613031	0.00767627	-2.90396
1034.02	0.07495770	0.00802927	-2.96352
1034.45	0.09553849	0.00819483	-3.00177
1034.87	0.10339	0.00832234	-3.0392
1035.30	0.104249	0.00841413	-3.0602
1035.72	0.09797065	0.00847243	-3.08723
1036.14	0.08993243	0.00849950	-3.10954
1036.57	0.06747162	0.00849761	-3.12518
1036.99	0.03652695	0.00846902	-3.13805
1037.42	0.02026230	0.00841598	-3.14328
1037.84	0.01795146	0.00834074	-3.15356
1038.27	0.02231299	0.00824560	-3.1601
1038.69	0.02961959	0.00813274	-3.16387
1039.11	0.03960096	0.00800453	-3.16781
1039.54	0.04972374	0.00793317	-3.18363
1039.96	0.03673776	0.00786014	-3.20353
1040.39	0.00872695	0.00777286	-3.2187
1040.81	0.01381174	0.00767048	-3.236
1041.23	0.04436161	0.00755219	-3.25249
1041.66	0.05348343	0.00741710	-3.27109
1042.08	0.04878220	0.00726445	-3.28595
1042.51	0.05219885	0.00709335	-3.30293
1042.93	0.03374068	0.00690303	-3.32301
1043.35	0.00000000	0.00669256	-3.33837
1043.78	0.00000000	0.00646120	-3.3578
1044.20	0.00000000	0.00620808	-3.37252
1044.63	0.00684376	0.00590950	-3.39423
1045.05	0.04858118	0.00546528	-3.44541
1045.47	0.02077603	0.00500290	-3.49089
1045.90	0.00000000	0.00452679	-3.53459
1046.32	0.01031664	0.00404163	-3.57552
1046.74	0.06091426	0.00355167	-3.61173
1047.17	0.113727	0.00306175	-3.6442
1047.59	0.136178	0.00257626	-3.66805
1048.02	0.118286	0.00209988	-3.68229
1048.44	0.107474	0.00163686	-3.68889
1048.86	0.120127	0.00119202	-3.68491
1049.29	0.09369086	0.00076975	-3.6684
1049.71	0.02049771	0.00037469	-3.63838